File: 01122021_RNi on NI FOAM_A_Pt_C_POL_2.txt
EXPLAIN
TAG	LSV
TITLE	LABEL	Linear Sweep Voltammetry	Test &Identifier
DATE	LABEL	1/12/2021	Date
TIME	LABEL	10:44:03	Time
NOTES	NOTES	1	&Notes...
	Ni foam_anode_Pt_cathode in 1M KOH
PSTAT	PSTAT	My Pstat	Potentiostat
VINIT	POTEN	7.00000E-001	F	&Initial E (V)
VFINAL	POTEN	1.50000E+000	F	&Final E (V)
SCANRATE	QUANT	9.99998E-001	&Scan Rate (mV/s)
STEPSIZE	QUANT	1.00000E+000	St&ep Size (mV)
IMODE	SELECTOR	1	I/E Range &Mode
IRANGE	QUANT	2.00000E+003	&Max Current (mA)
AREA	QUANT	1.69000E+000	Electrode &Area (cm^2)
ELECTRODETYPE	SELECTOR	0	Electrode Type
STRIPPING	TOGGLE	F	Used for Stripping
POLARITY	TOGGLE	F	Signal Polarity
CONDIT	TWOPARAM	F	1.50000E+001	0.00000E+000	Conditionin&g	Time(s)	E(V)
DELAY	TWOPARAM	F	3.00000E+001	0.00000E+000	Init. De&lay	Time(s)	Stab.(mV/s)
EQDELAY	QUANT	5.00000E+000	Equil. &Time (s)
IRCOMP	SELECTOR	0	IRCom&p
PFCOR	QUANT	5.00000E+001	PF Corr. (ohm)
SAMPLINGMODE	SELECTOR	1	Sampling &Mode
EOC	QUANT	0	Open Circuit (V)
PSTATMODEL	IQUANT	5	Pstat Model
PSTATSECTION	LABEL	REF3000-14115	Pstat Section
PSTATSERIALNO	LABEL	14115	Pstat Serial Number
CTRLMODE	IQUANT	1	Control Mode
IESTAB	IQUANT	2	I/E Stability
CASPEED	IQUANT	2	Control Amp Speed
CONVENTION	IQUANT	1	Current Convention
ICHRANGE	IQUANT	2	Ich Range
ICHRANGEMODE	TOGGLE	F	Ich Auto Range
ICHOFFSETENABLE	TOGGLE	F	Ich Offset Enable
ICHOFFSET	QUANT	0	Ich Offset (V)
ICHFILTER	IQUANT	3	Ich Filter
VCHRANGE	IQUANT	2	Vch Range
VCHRANGEMODE	TOGGLE	T	Vch Auto Range
VCHOFFSETENABLE	TOGGLE	F	Vch Offset Enable
VCHOFFSET	QUANT	0	Vch Offset (V)
VCHFILTER	IQUANT	3	Vch Filter
ACHRANGE	IQUANT	2	Ach Range
ACHOFFSETENABLE	TOGGLE	F	Ach Offset Enable
ACHOFFSET	QUANT	0	Ach Offset (V)
ACHFILTER	IQUANT	1	Ach Filter
IERANGELOWERLIMIT	IQUANT	2	I/E Range Lower Limit
IERANGEMODE	TOGGLE	F	I/E AutoRange
IERANGE	IQUANT	12	I/E Range
POSFEEDENABLE	TOGGLE	F	Positive Feedback IR Comp
POSFEEDRESISTANCE	QUANT	0	Positive Feedback Resistance (ohm)
ACHSELECT	IQUANT	0	Ach Select
CABLEID	IQUANT	13	Cable ID
DCCALDATE	LABEL	2/23/2015	DC Calibration Date
ACCALDATE	LABEL		AC Calibration Date
THERMOSELECT	IQUANT	1	Thermo Select
FRAMEWORKVERSION	QUANT	6.21	Framework Version
INSTRUMENTVERSION	LABEL	3.20	Instrument Version
COMPLIANCEVOLTAGE	IQUANT	0	Compliance Voltage
CURVE	TABLE	801
	Pt	T	Vf	Im	Vu	Sig	Ach	IERange	Over	Cycle
	#	s	V vs. Ref.	A	V	V	V	#	bits	#
	0	1	6.99351E-001	4.73227E-003	0.00000E+000	7.00000E-001	5.18110E-004	12	...........	0
	2	3	7.01324E-001	4.27282E-003	0.00000E+000	7.02000E-001	4.66111E-004	12	...........	0
	4	5	7.03347E-001	4.23602E-003	0.00000E+000	7.04000E-001	4.79294E-004	12	...........	0
	6	7	7.05169E-001	4.08710E-003	0.00000E+000	7.06000E-001	5.48259E-004	12	...........	0
	8	9	7.07219E-001	4.02101E-003	0.00000E+000	7.08000E-001	5.40234E-004	12	...........	0
	10	11	7.09248E-001	3.99575E-003	0.00000E+000	7.10000E-001	4.72344E-004	12	...........	0
	12	13	7.11242E-001	4.02679E-003	0.00000E+000	7.12000E-001	4.94785E-004	12	...........	0
	14	15	7.13234E-001	4.06000E-003	0.00000E+000	7.14000E-001	5.53559E-004	12	...........	0
	16	17	7.15241E-001	4.09596E-003	0.00000E+000	7.16000E-001	5.28335E-004	12	...........	0
	18	19	7.17266E-001	4.10535E-003	0.00000E+000	7.18000E-001	4.60644E-004	12	...........	0
	20	21	7.19335E-001	4.19215E-003	0.00000E+000	7.20000E-001	5.14460E-004	12	...........	0
	22	23	7.21287E-001	4.23162E-003	0.00000E+000	7.22000E-001	5.57893E-004	12	...........	0
	24	25	7.23340E-001	4.25470E-003	0.00000E+000	7.24000E-001	5.27810E-004	12	...........	0
	26	27	7.25298E-001	4.26713E-003	0.00000E+000	7.26000E-001	4.59286E-004	12	...........	0
	28	29	7.27333E-001	4.27641E-003	0.00000E+000	7.28000E-001	4.89094E-004	12	...........	0
	30	31	7.29355E-001	4.30035E-003	0.00000E+000	7.30000E-001	5.43559E-004	12	...........	0
	32	33	7.31170E-001	4.48085E-003	0.00000E+000	7.32000E-001	5.39159E-004	12	...........	0
	34	35	7.33223E-001	4.70892E-003	0.00000E+000	7.34000E-001	4.71019E-004	12	...........	0
	36	37	7.35209E-001	4.82135E-003	0.00000E+000	7.36000E-001	5.00952E-004	12	...........	0
	38	39	7.37216E-001	4.90456E-003	0.00000E+000	7.38000E-001	5.59859E-004	12	...........	0
	40	41	7.39206E-001	5.00357E-003	0.00000E+000	7.40000E-001	5.29968E-004	12	...........	0
	42	43	7.41255E-001	5.21924E-003	0.00000E+000	7.42000E-001	4.58844E-004	12	...........	0
	44	45	7.43265E-001	5.51763E-003	0.00000E+000	7.44000E-001	5.02768E-004	12	...........	0
	46	47	7.45266E-001	5.56952E-003	0.00000E+000	7.46000E-001	5.45668E-004	12	...........	0
	48	49	7.47312E-001	5.58112E-003	0.00000E+000	7.48000E-001	5.35410E-004	12	...........	0
	50	51	7.49278E-001	5.59544E-003	0.00000E+000	7.50000E-001	4.70794E-004	12	...........	0
	52	53	7.51307E-001	5.69273E-003	0.00000E+000	7.52000E-001	5.03885E-004	12	...........	0
	54	55	7.53328E-001	5.82899E-003	0.00000E+000	7.54000E-001	5.74959E-004	12	...........	0
	56	57	7.55304E-001	5.86635E-003	0.00000E+000	7.56000E-001	4.89660E-004	12	...........	0
	58	59	7.57156E-001	5.84670E-003	0.00000E+000	7.58000E-001	4.97452E-004	12	...........	0
	60	61	7.59159E-001	5.87915E-003	0.00000E+000	7.60000E-001	4.83860E-004	12	...........	0
	62	63	7.61172E-001	5.91337E-003	0.00000E+000	7.62000E-001	5.46493E-004	12	...........	0
	64	65	7.63170E-001	6.26817E-003	0.00000E+000	7.64000E-001	5.58293E-004	12	...........	0
	66	67	7.65221E-001	6.39203E-003	0.00000E+000	7.66000E-001	4.64744E-004	12	...........	0
	68	69	7.67189E-001	6.52644E-003	0.00000E+000	7.68000E-001	4.81535E-004	12	...........	0
	70	71	7.69235E-001	6.59791E-003	0.00000E+000	7.70000E-001	5.64109E-004	12	...........	0
	72	73	7.71265E-001	6.81152E-003	0.00000E+000	7.72000E-001	5.38518E-004	12	...........	0
	74	75	7.73257E-001	7.14903E-003	0.00000E+000	7.74000E-001	4.61027E-004	12	...........	0
	76	77	7.75277E-001	7.17835E-003	0.00000E+000	7.76000E-001	4.68211E-004	12	...........	0
	78	79	7.77298E-001	7.20243E-003	0.00000E+000	7.78000E-001	5.46868E-004	12	...........	0
	80	81	7.79277E-001	7.24113E-003	0.00000E+000	7.80000E-001	5.36868E-004	12	...........	0
	82	83	7.81134E-001	7.24492E-003	0.00000E+000	7.82000E-001	4.69269E-004	12	...........	0
	84	85	7.83109E-001	7.34956E-003	0.00000E+000	7.84000E-001	4.71627E-004	12	...........	0
	86	87	7.85146E-001	7.42941E-003	0.00000E+000	7.86000E-001	5.49718E-004	12	...........	0
	88	89	7.87105E-001	7.47070E-003	0.00000E+000	7.88000E-001	5.42676E-004	12	...........	0
	90	91	7.89194E-001	7.45219E-003	0.00000E+000	7.90000E-001	4.63644E-004	12	...........	0
	92	93	7.91143E-001	7.50533E-003	0.00000E+000	7.92000E-001	4.69327E-004	12	...........	0
	94	95	7.93174E-001	7.62577E-003	0.00000E+000	7.94000E-001	5.41693E-004	12	...........	0
	96	97	7.95222E-001	7.96270E-003	0.00000E+000	7.96000E-001	5.34676E-004	12	...........	0
	98	99	7.97225E-001	8.09716E-003	0.00000E+000	7.98000E-001	4.54836E-004	12	...........	0
	100	101	7.99243E-001	8.37785E-003	0.00000E+000	8.00000E-001	4.83227E-004	12	...........	0
	102	103	8.01243E-001	8.36679E-003	0.00000E+000	8.02000E-001	5.62767E-004	12	...........	0
	104	105	8.03241E-001	8.65008E-003	0.00000E+000	8.04000E-001	5.56601E-004	12	...........	0
	106	107	8.05257E-001	8.78593E-003	0.00000E+000	8.06000E-001	4.76327E-004	12	...........	0
	108	109	8.07119E-001	8.77107E-003	0.00000E+000	8.08000E-001	4.51227E-004	12	...........	0
	110	111	8.09159E-001	8.81461E-003	0.00000E+000	8.10000E-001	5.05527E-004	12	...........	0
	112	113	8.11046E-001	8.84542E-003	0.00000E+000	8.12000E-001	5.47759E-004	12	...........	0
	114	115	8.13163E-001	8.94182E-003	0.00000E+000	8.14000E-001	4.58636E-004	12	...........	0
	116	117	8.15070E-001	9.04674E-003	0.00000E+000	8.16000E-001	4.65377E-004	12	...........	0
	118	119	8.17148E-001	9.08436E-003	0.00000E+000	8.18000E-001	5.32868E-004	12	...........	0
	120	121	8.19051E-001	9.08076E-003	0.00000E+000	8.20000E-001	5.56509E-004	12	...........	0
	122	123	8.21173E-001	9.18868E-003	0.00000E+000	8.22000E-001	4.82210E-004	12	...........	0
	124	125	8.23185E-001	9.34280E-003	0.00000E+000	8.24000E-001	4.76919E-004	12	...........	0
	126	127	8.25199E-001	9.55332E-003	0.00000E+000	8.26000E-001	5.55609E-004	12	...........	0
	128	129	8.27203E-001	9.73949E-003	0.00000E+000	8.28000E-001	5.64476E-004	12	...........	0
	130	131	8.29207E-001	1.02985E-002	0.00000E+000	8.30000E-001	4.86994E-004	12	...........	0
	132	133	8.31208E-001	1.03679E-002	0.00000E+000	8.32000E-001	4.52094E-004	12	...........	0
	134	135	8.33112E-001	1.03806E-002	0.00000E+000	8.34000E-001	5.35801E-004	12	...........	0
	136	137	8.34927E-001	1.03888E-002	0.00000E+000	8.36000E-001	5.53118E-004	12	...........	0
	138	139	8.37148E-001	1.03915E-002	0.00000E+000	8.38000E-001	4.49586E-004	12	...........	0
	140	141	8.38949E-001	1.04523E-002	0.00000E+000	8.40000E-001	4.66427E-004	12	...........	0
	142	143	8.41130E-001	1.05252E-002	0.00000E+000	8.42000E-001	5.47768E-004	12	...........	0
	144	145	8.42956E-001	1.06063E-002	0.00000E+000	8.44000E-001	5.48793E-004	12	...........	0
	146	147	8.45164E-001	1.06602E-002	0.00000E+000	8.46000E-001	4.49594E-004	12	...........	0
	148	149	8.47104E-001	1.08668E-002	0.00000E+000	8.48000E-001	4.56977E-004	12	...........	0
	150	151	8.49162E-001	1.10105E-002	0.00000E+000	8.50000E-001	5.65192E-004	12	...........	0
	152	153	8.51163E-001	1.11874E-002	0.00000E+000	8.52000E-001	5.20243E-004	12	...........	0
	154	155	8.53169E-001	1.14541E-002	0.00000E+000	8.54000E-001	4.67277E-004	12	...........	0
	156	157	8.55168E-001	1.19000E-002	0.00000E+000	8.56000E-001	4.66411E-004	12	...........	0
	158	159	8.57255E-001	1.18638E-002	0.00000E+000	8.58000E-001	4.58427E-004	12	...........	0
	160	161	8.58956E-001	1.19656E-002	0.00000E+000	8.60000E-001	5.49134E-004	12	...........	0
	162	163	8.61109E-001	1.19930E-002	0.00000E+000	8.62000E-001	4.77127E-004	12	...........	0
	164	165	8.62924E-001	1.19957E-002	0.00000E+000	8.64000E-001	4.66169E-004	12	...........	0
	166	167	8.65110E-001	1.20014E-002	0.00000E+000	8.66000E-001	5.42084E-004	12	...........	0
	168	169	8.66953E-001	1.21304E-002	0.00000E+000	8.68000E-001	5.50218E-004	12	...........	0
	170	171	8.69119E-001	1.21856E-002	0.00000E+000	8.70000E-001	4.59536E-004	12	...........	0
	172	173	8.71034E-001	1.22773E-002	0.00000E+000	8.72000E-001	4.56702E-004	12	...........	0
	174	175	8.73129E-001	1.25470E-002	0.00000E+000	8.74000E-001	5.40518E-004	12	...........	0
	176	177	8.75112E-001	1.27927E-002	0.00000E+000	8.76000E-001	5.35868E-004	12	...........	0
	178	179	8.77142E-001	1.29050E-002	0.00000E+000	8.78000E-001	4.49486E-004	12	...........	0
	180	181	8.79135E-001	1.29558E-002	0.00000E+000	8.80000E-001	4.72960E-004	12	...........	0
	182	183	8.81165E-001	1.30940E-002	0.00000E+000	8.82000E-001	5.25118E-004	12	...........	0
	184	185	8.83138E-001	1.32091E-002	0.00000E+000	8.84000E-001	5.15143E-004	12	...........	0
	186	187	8.85089E-001	1.34270E-002	0.00000E+000	8.86000E-001	5.01702E-004	12	...........	0
	188	189	8.86928E-001	1.35543E-002	0.00000E+000	8.88000E-001	4.74269E-004	12	...........	0
	190	191	8.89089E-001	1.36017E-002	0.00000E+000	8.90000E-001	5.49226E-004	12	...........	0
	192	193	8.90935E-001	1.37377E-002	0.00000E+000	8.92000E-001	5.83067E-004	12	...........	0
	194	195	8.93096E-001	1.38385E-002	0.00000E+000	8.94000E-001	4.66294E-004	12	...........	0
	196	197	8.94931E-001	1.39395E-002	0.00000E+000	8.96000E-001	4.79385E-004	12	...........	0
	198	199	8.97110E-001	1.40781E-002	0.00000E+000	8.98000E-001	5.71392E-004	12	...........	0
	200	201	8.99079E-001	1.42298E-002	0.00000E+000	9.00000E-001	5.71634E-004	12	...........	0
	202	203	9.01117E-001	1.43956E-002	0.00000E+000	9.02000E-001	4.84794E-004	12	...........	0
	204	205	9.03104E-001	1.44898E-002	0.00000E+000	9.04000E-001	4.93202E-004	12	...........	0
	206	207	9.05122E-001	1.45976E-002	0.00000E+000	9.06000E-001	5.47101E-004	12	...........	0
	208	209	9.07111E-001	1.47058E-002	0.00000E+000	9.08000E-001	5.73042E-004	12	...........	0
	210	211	9.09104E-001	1.48933E-002	0.00000E+000	9.10000E-001	4.68044E-004	12	...........	0
	212	213	9.10913E-001	1.50920E-002	0.00000E+000	9.12000E-001	4.71944E-004	12	...........	0
	214	215	9.13099E-001	1.51903E-002	0.00000E+000	9.14000E-001	5.12935E-004	12	...........	0
	216	217	9.14931E-001	1.52300E-002	0.00000E+000	9.16000E-001	5.74792E-004	12	...........	0
	218	219	9.17079E-001	1.53492E-002	0.00000E+000	9.18000E-001	4.79685E-004	12	...........	0
	220	221	9.18918E-001	1.54381E-002	0.00000E+000	9.20000E-001	4.58444E-004	12	...........	0
	222	223	9.21078E-001	1.55446E-002	0.00000E+000	9.22000E-001	5.63667E-004	12	...........	0
	224	225	9.23052E-001	1.57043E-002	0.00000E+000	9.24000E-001	5.49734E-004	12	...........	0
	226	227	9.25099E-001	1.58626E-002	0.00000E+000	9.26000E-001	4.58811E-004	12	...........	0
	228	229	9.27078E-001	1.59948E-002	0.00000E+000	9.28000E-001	4.65161E-004	12	...........	0
	230	231	9.29116E-001	1.60884E-002	0.00000E+000	9.30000E-001	5.33901E-004	12	...........	0
	232	233	9.31106E-001	1.61776E-002	0.00000E+000	9.32000E-001	5.60934E-004	12	...........	0
	234	235	9.33098E-001	1.62862E-002	0.00000E+000	9.34000E-001	5.07177E-004	12	...........	0
	236	237	9.34950E-001	1.64974E-002	0.00000E+000	9.36000E-001	4.95802E-004	12	...........	0
	238	239	9.37084E-001	1.66886E-002	0.00000E+000	9.38000E-001	5.61976E-004	12	...........	0
	240	241	9.38902E-001	1.67812E-002	0.00000E+000	9.40000E-001	5.72251E-004	12	...........	0
	242	243	9.41066E-001	1.68531E-002	0.00000E+000	9.42000E-001	4.74085E-004	12	...........	0
	244	245	9.42910E-001	1.69654E-002	0.00000E+000	9.44000E-001	4.76610E-004	12	...........	0
	246	247	9.45074E-001	1.70534E-002	0.00000E+000	9.46000E-001	5.54643E-004	12	...........	0
	248	249	9.46910E-001	1.71499E-002	0.00000E+000	9.48000E-001	5.48176E-004	12	...........	0
	250	251	9.49084E-001	1.73174E-002	0.00000E+000	9.50000E-001	4.72419E-004	12	...........	0
	252	253	9.51024E-001	1.74717E-002	0.00000E+000	9.52000E-001	4.77119E-004	12	...........	0
	254	255	9.53093E-001	1.75891E-002	0.00000E+000	9.54000E-001	5.65492E-004	12	...........	0
	256	257	9.55077E-001	1.77129E-002	0.00000E+000	9.56000E-001	5.48218E-004	12	...........	0
	258	259	9.57085E-001	1.78178E-002	0.00000E+000	9.58000E-001	5.02985E-004	12	...........	0
	260	261	9.59082E-001	1.79406E-002	0.00000E+000	9.60000E-001	4.81669E-004	12	...........	0
	262	263	9.61097E-001	1.81076E-002	0.00000E+000	9.62000E-001	4.84102E-004	12	...........	0
	264	265	9.62962E-001	1.83424E-002	0.00000E+000	9.64000E-001	5.50576E-004	12	...........	0
	266	267	9.65058E-001	1.84106E-002	0.00000E+000	9.66000E-001	5.01043E-004	12	...........	0
	268	269	9.66899E-001	1.84737E-002	0.00000E+000	9.68000E-001	4.82460E-004	12	...........	0
	270	271	9.69048E-001	1.85676E-002	0.00000E+000	9.70000E-001	5.54293E-004	12	...........	0
	272	273	9.70907E-001	1.86508E-002	0.00000E+000	9.72000E-001	5.85867E-004	12	...........	0
	274	275	9.73060E-001	1.87671E-002	0.00000E+000	9.74000E-001	4.94560E-004	12	...........	0
	276	277	9.74960E-001	1.89394E-002	0.00000E+000	9.76000E-001	4.77569E-004	12	...........	0
	278	279	9.77082E-001	1.90749E-002	0.00000E+000	9.78000E-001	5.41801E-004	12	...........	0
	280	281	9.79055E-001	1.92342E-002	0.00000E+000	9.80000E-001	5.63134E-004	12	...........	0
	282	283	9.81062E-001	1.93272E-002	0.00000E+000	9.82000E-001	4.81085E-004	12	...........	0
	284	285	9.83060E-001	1.94408E-002	0.00000E+000	9.84000E-001	4.78777E-004	12	...........	0
	286	287	9.85069E-001	1.95215E-002	0.00000E+000	9.86000E-001	4.99793E-004	12	...........	0
	288	289	9.86880E-001	1.97459E-002	0.00000E+000	9.88000E-001	5.77709E-004	12	...........	0
	290	291	9.89027E-001	2.00098E-002	0.00000E+000	9.90000E-001	4.86610E-004	12	...........	0
	292	293	9.90892E-001	2.00227E-002	0.00000E+000	9.92000E-001	4.74610E-004	12	...........	0
	294	295	9.93031E-001	2.01241E-002	0.00000E+000	9.94000E-001	5.43243E-004	12	...........	0
	296	297	9.94903E-001	2.02256E-002	0.00000E+000	9.96000E-001	5.75101E-004	12	...........	0
	298	299	9.97025E-001	2.02877E-002	0.00000E+000	9.98000E-001	4.77852E-004	12	...........	0
	300	301	9.98910E-001	2.04554E-002	0.00000E+000	1.00000E+000	4.71777E-004	12	...........	0
	302	303	1.00106E+000	2.05829E-002	0.00000E+000	1.00200E+000	5.77667E-004	12	...........	0
	304	305	1.00300E+000	2.07818E-002	0.00000E+000	1.00400E+000	5.54576E-004	12	...........	0
	306	307	1.00504E+000	2.08435E-002	0.00000E+000	1.00600E+000	4.94452E-004	12	...........	0
	308	309	1.00702E+000	2.09875E-002	0.00000E+000	1.00800E+000	4.69761E-004	12	...........	0
	310	311	1.00904E+000	2.11115E-002	0.00000E+000	1.01000E+000	5.20626E-004	12	...........	0
	312	313	1.01105E+000	2.12291E-002	0.00000E+000	1.01200E+000	5.26943E-004	12	...........	0
	314	315	1.01299E+000	2.15775E-002	0.00000E+000	1.01400E+000	5.00260E-004	12	...........	0
	316	317	1.01488E+000	2.16174E-002	0.00000E+000	1.01600E+000	4.81627E-004	12	...........	0
	318	319	1.01700E+000	2.16455E-002	0.00000E+000	1.01800E+000	5.24343E-004	12	...........	0
	320	321	1.01889E+000	2.17469E-002	0.00000E+000	1.02000E+000	5.47493E-004	12	...........	0
	322	323	1.02099E+000	2.18502E-002	0.00000E+000	1.02200E+000	5.06402E-004	12	...........	0
	324	325	1.02289E+000	2.18765E-002	0.00000E+000	1.02400E+000	4.67202E-004	12	...........	0
	326	327	1.02502E+000	2.19674E-002	0.00000E+000	1.02600E+000	5.22326E-004	12	...........	0
	328	329	1.02693E+000	2.22289E-002	0.00000E+000	1.02800E+000	5.64367E-004	12	...........	0
	330	331	1.02902E+000	2.23495E-002	0.00000E+000	1.03000E+000	4.92710E-004	12	...........	0
	332	333	1.03097E+000	2.24856E-002	0.00000E+000	1.03200E+000	4.64052E-004	12	...........	0
	334	335	1.03301E+000	2.26297E-002	0.00000E+000	1.03400E+000	5.24443E-004	12	...........	0
	336	337	1.03502E+000	2.27145E-002	0.00000E+000	1.03600E+000	5.80167E-004	12	...........	0
	338	339	1.03703E+000	2.29897E-002	0.00000E+000	1.03800E+000	4.76310E-004	12	...........	0
	340	341	1.03886E+000	2.32099E-002	0.00000E+000	1.04000E+000	4.75694E-004	12	...........	0
	342	343	1.04097E+000	2.32221E-002	0.00000E+000	1.04200E+000	5.19526E-004	12	...........	0
	344	345	1.04287E+000	2.32420E-002	0.00000E+000	1.04400E+000	5.87592E-004	12	...........	0
	346	347	1.04495E+000	2.33292E-002	0.00000E+000	1.04600E+000	5.25076E-004	12	...........	0
	348	349	1.04688E+000	2.34234E-002	0.00000E+000	1.04800E+000	4.57552E-004	12	...........	0
	350	351	1.04895E+000	2.35142E-002	0.00000E+000	1.05000E+000	5.31660E-004	12	...........	0
	352	353	1.05091E+000	2.35360E-002	0.00000E+000	1.05200E+000	5.83942E-004	12	...........	0
	354	355	1.05300E+000	2.37582E-002	0.00000E+000	1.05400E+000	4.94135E-004	12	...........	0
	356	357	1.05491E+000	2.39934E-002	0.00000E+000	1.05600E+000	4.53394E-004	12	...........	0
	358	359	1.05699E+000	2.40656E-002	0.00000E+000	1.05800E+000	5.08260E-004	12	...........	0
	360	361	1.05899E+000	2.41884E-002	0.00000E+000	1.06000E+000	5.68567E-004	12	...........	0
	362	363	1.06098E+000	2.43404E-002	0.00000E+000	1.06200E+000	4.91560E-004	12	...........	0
	364	365	1.06278E+000	2.47277E-002	0.00000E+000	1.06400E+000	4.83519E-004	12	...........	0
	366	367	1.06490E+000	2.48069E-002	0.00000E+000	1.06600E+000	5.02552E-004	12	...........	0
	368	369	1.06682E+000	2.48271E-002	0.00000E+000	1.06800E+000	5.75959E-004	12	...........	0
	370	371	1.06890E+000	2.48571E-002	0.00000E+000	1.07000E+000	5.25451E-004	12	...........	0
	372	373	1.07087E+000	2.49379E-002	0.00000E+000	1.07200E+000	4.74460E-004	12	...........	0
	374	375	1.07291E+000	2.50777E-002	0.00000E+000	1.07400E+000	5.09293E-004	12	...........	0
	376	377	1.07486E+000	2.51159E-002	0.00000E+000	1.07600E+000	5.65934E-004	12	...........	0
	378	379	1.07697E+000	2.51224E-002	0.00000E+000	1.07800E+000	5.19968E-004	12	...........	0
	380	381	1.07890E+000	2.52398E-002	0.00000E+000	1.08000E+000	4.75010E-004	12	...........	0
	382	383	1.08097E+000	2.54408E-002	0.00000E+000	1.08200E+000	5.36368E-004	12	...........	0
	384	385	1.08296E+000	2.56637E-002	0.00000E+000	1.08400E+000	5.67451E-004	12	...........	0
	386	387	1.08496E+000	2.57761E-002	0.00000E+000	1.08600E+000	5.25685E-004	12	...........	0
	388	389	1.08698E+000	2.58996E-002	0.00000E+000	1.08800E+000	5.03893E-004	12	...........	0
	390	391	1.08887E+000	2.60148E-002	0.00000E+000	1.09000E+000	4.73260E-004	12	...........	0
	392	393	1.09083E+000	2.63819E-002	0.00000E+000	1.09200E+000	5.49768E-004	12	...........	0
	394	395	1.09286E+000	2.64292E-002	0.00000E+000	1.09400E+000	5.27460E-004	12	...........	0
	396	397	1.09485E+000	2.64424E-002	0.00000E+000	1.09600E+000	4.69502E-004	12	...........	0
	398	399	1.09688E+000	2.65516E-002	0.00000E+000	1.09800E+000	5.10493E-004	12	...........	0
	400	401	1.09884E+000	2.66628E-002	0.00000E+000	1.10000E+000	5.79284E-004	12	...........	0
	402	403	1.10086E+000	2.67220E-002	0.00000E+000	1.10200E+000	5.67967E-004	12	...........	0
	404	405	1.10287E+000	2.67696E-002	0.00000E+000	1.10400E+000	4.70977E-004	12	...........	0
	406	407	1.10494E+000	2.69071E-002	0.00000E+000	1.10600E+000	5.11102E-004	12	...........	0
	408	409	1.10694E+000	2.71787E-002	0.00000E+000	1.10800E+000	5.63834E-004	12	...........	0
	410	411	1.10894E+000	2.72549E-002	0.00000E+000	1.11000E+000	5.41118E-004	12	...........	0
	412	413	1.11094E+000	2.74027E-002	0.00000E+000	1.11200E+000	4.88344E-004	12	...........	0
	414	415	1.11293E+000	2.75544E-002	0.00000E+000	1.11400E+000	4.65202E-004	12	...........	0
	416	417	1.11484E+000	2.77517E-002	0.00000E+000	1.11600E+000	5.31451E-004	12	...........	0
	418	419	1.11678E+000	2.80117E-002	0.00000E+000	1.11800E+000	5.40418E-004	12	...........	0
	420	421	1.11882E+000	2.80341E-002	0.00000E+000	1.12000E+000	4.75577E-004	12	...........	0
	422	423	1.12080E+000	2.80601E-002	0.00000E+000	1.12200E+000	4.75435E-004	12	...........	0
	424	425	1.12280E+000	2.81870E-002	0.00000E+000	1.12400E+000	5.54084E-004	12	...........	0
	426	427	1.12482E+000	2.82737E-002	0.00000E+000	1.12600E+000	5.43993E-004	12	...........	0
	428	429	1.12683E+000	2.82865E-002	0.00000E+000	1.12800E+000	4.84552E-004	12	...........	0
	430	431	1.12890E+000	2.83383E-002	0.00000E+000	1.13000E+000	5.10985E-004	12	...........	0
	432	433	1.13088E+000	2.84769E-002	0.00000E+000	1.13200E+000	5.60901E-004	12	...........	0
	434	435	1.13291E+000	2.87191E-002	0.00000E+000	1.13400E+000	5.29176E-004	12	...........	0
	436	437	1.13489E+000	2.88537E-002	0.00000E+000	1.13600E+000	4.80094E-004	12	...........	0
	438	439	1.13690E+000	2.90057E-002	0.00000E+000	1.13800E+000	4.93919E-004	12	...........	0
	440	441	1.13897E+000	2.91239E-002	0.00000E+000	1.14000E+000	5.46351E-004	12	...........	0
	442	443	1.14077E+000	2.93396E-002	0.00000E+000	1.14200E+000	5.32635E-004	12	...........	0
	444	445	1.14278E+000	2.96355E-002	0.00000E+000	1.14400E+000	4.73335E-004	12	...........	0
	446	447	1.14478E+000	2.96422E-002	0.00000E+000	1.14600E+000	4.83952E-004	12	...........	0
	448	449	1.14678E+000	2.96681E-002	0.00000E+000	1.14800E+000	5.52193E-004	12	...........	0
	450	451	1.14877E+000	2.98039E-002	0.00000E+000	1.15000E+000	5.48301E-004	12	...........	0
	452	453	1.15081E+000	2.98464E-002	0.00000E+000	1.15200E+000	4.63752E-004	12	...........	0
	454	455	1.15283E+000	2.99245E-002	0.00000E+000	1.15400E+000	4.94452E-004	12	...........	0
	456	457	1.15484E+000	2.99539E-002	0.00000E+000	1.15600E+000	5.78826E-004	12	...........	0
	458	459	1.15687E+000	3.01308E-002	0.00000E+000	1.15800E+000	5.54993E-004	12	...........	0
	460	461	1.15886E+000	3.03464E-002	0.00000E+000	1.16000E+000	4.80319E-004	12	...........	0
	462	463	1.16087E+000	3.04823E-002	0.00000E+000	1.16200E+000	4.91677E-004	12	...........	0
	464	465	1.16293E+000	3.06188E-002	0.00000E+000	1.16400E+000	5.43651E-004	12	...........	0
	466	467	1.16489E+000	3.07512E-002	0.00000E+000	1.16600E+000	4.75977E-004	12	...........	0
	468	469	1.16672E+000	3.11470E-002	0.00000E+000	1.16800E+000	5.02802E-004	12	...........	0
	470	471	1.16873E+000	3.12390E-002	0.00000E+000	1.17000E+000	4.88144E-004	12	...........	0
	472	473	1.17077E+000	3.12490E-002	0.00000E+000	1.17200E+000	5.48334E-004	12	...........	0
	474	475	1.17274E+000	3.12623E-002	0.00000E+000	1.17400E+000	5.62909E-004	12	...........	0
	476	477	1.17478E+000	3.13371E-002	0.00000E+000	1.17600E+000	4.83210E-004	12	...........	0
	478	479	1.17674E+000	3.14979E-002	0.00000E+000	1.17800E+000	4.84552E-004	12	...........	0
	480	481	1.17884E+000	3.15317E-002	0.00000E+000	1.18000E+000	5.61184E-004	12	...........	0
	482	483	1.18081E+000	3.15440E-002	0.00000E+000	1.18200E+000	5.60434E-004	12	...........	0
	484	485	1.18282E+000	3.16532E-002	0.00000E+000	1.18400E+000	5.00985E-004	12	...........	0
	486	487	1.18484E+000	3.18159E-002	0.00000E+000	1.18600E+000	5.00185E-004	12	...........	0
	488	489	1.18690E+000	3.20142E-002	0.00000E+000	1.18800E+000	5.53576E-004	12	...........	0
	490	491	1.18883E+000	3.21912E-002	0.00000E+000	1.19000E+000	5.74751E-004	12	...........	0
	492	493	1.19077E+000	3.22794E-002	0.00000E+000	1.19200E+000	4.80719E-004	12	...........	0
	494	495	1.19270E+000	3.26554E-002	0.00000E+000	1.19400E+000	4.81477E-004	12	...........	0
	496	497	1.19475E+000	3.27979E-002	0.00000E+000	1.19600E+000	5.75234E-004	12	...........	0
	498	499	1.19668E+000	3.28470E-002	0.00000E+000	1.19800E+000	5.77376E-004	12	...........	0
	500	501	1.19874E+000	3.28471E-002	0.00000E+000	1.20000E+000	4.77627E-004	12	...........	0
	502	503	1.20070E+000	3.28972E-002	0.00000E+000	1.20200E+000	4.98635E-004	12	...........	0
	504	505	1.20275E+000	3.30163E-002	0.00000E+000	1.20400E+000	5.77234E-004	12	...........	0
	506	507	1.20477E+000	3.30781E-002	0.00000E+000	1.20600E+000	5.62809E-004	12	...........	0
	508	509	1.20677E+000	3.31231E-002	0.00000E+000	1.20800E+000	4.83260E-004	12	...........	0
	510	511	1.20879E+000	3.31612E-002	0.00000E+000	1.21000E+000	4.83135E-004	12	...........	0
	512	513	1.21085E+000	3.32805E-002	0.00000E+000	1.21200E+000	5.64934E-004	12	...........	0
	514	515	1.21280E+000	3.35843E-002	0.00000E+000	1.21400E+000	5.60559E-004	12	...........	0
	516	517	1.21483E+000	3.37042E-002	0.00000E+000	1.21600E+000	5.00343E-004	12	...........	0
	518	519	1.21670E+000	3.38899E-002	0.00000E+000	1.21800E+000	4.58477E-004	12	...........	0
	520	521	1.21874E+000	3.39873E-002	0.00000E+000	1.22000E+000	5.56101E-004	12	...........	0
	522	523	1.22065E+000	3.42707E-002	0.00000E+000	1.22200E+000	5.72526E-004	12	...........	0
	524	525	1.22272E+000	3.44483E-002	0.00000E+000	1.22400E+000	4.83152E-004	12	...........	0
	526	527	1.22467E+000	3.44527E-002	0.00000E+000	1.22600E+000	4.86819E-004	12	...........	0
	528	529	1.22673E+000	3.45090E-002	0.00000E+000	1.22800E+000	5.47068E-004	12	...........	0
	530	531	1.22865E+000	3.46306E-002	0.00000E+000	1.23000E+000	5.72476E-004	12	...........	0
	532	533	1.23071E+000	3.46510E-002	0.00000E+000	1.23200E+000	4.93760E-004	12	...........	0
	534	535	1.23270E+000	3.47393E-002	0.00000E+000	1.23400E+000	4.76035E-004	12	...........	0
	536	537	1.23477E+000	3.47516E-002	0.00000E+000	1.23600E+000	5.54468E-004	12	...........	0
	538	539	1.23671E+000	3.51806E-002	0.00000E+000	1.23800E+000	5.68334E-004	12	...........	0
	540	541	1.23873E+000	3.51434E-002	0.00000E+000	1.24000E+000	4.89652E-004	12	...........	0
	542	543	1.24072E+000	3.53989E-002	0.00000E+000	1.24200E+000	4.81169E-004	12	...........	0
	544	545	1.24283E+000	3.54111E-002	0.00000E+000	1.24400E+000	4.88177E-004	12	...........	0
	546	547	1.24454E+000	3.56345E-002	0.00000E+000	1.24600E+000	5.82909E-004	12	...........	0
	548	549	1.24668E+000	3.60372E-002	0.00000E+000	1.24800E+000	4.74194E-004	12	...........	0
	550	551	1.24853E+000	3.60522E-002	0.00000E+000	1.25000E+000	4.74735E-004	12	...........	0
	552	553	1.25069E+000	3.60567E-002	0.00000E+000	1.25200E+000	5.54176E-004	12	...........	0
	554	555	1.25254E+000	3.60657E-002	0.00000E+000	1.25400E+000	5.39151E-004	12	...........	0
	556	557	1.25469E+000	3.61521E-002	0.00000E+000	1.25600E+000	4.66277E-004	12	...........	0
	558	559	1.25664E+000	3.62356E-002	0.00000E+000	1.25800E+000	4.55794E-004	12	...........	0
	560	561	1.25872E+000	3.63404E-002	0.00000E+000	1.26000E+000	5.54668E-004	12	...........	0
	562	563	1.26069E+000	3.63429E-002	0.00000E+000	1.26200E+000	5.36034E-004	12	...........	0
	564	565	1.26270E+000	3.64238E-002	0.00000E+000	1.26400E+000	4.61561E-004	12	...........	0
	566	567	1.26470E+000	3.64997E-002	0.00000E+000	1.26600E+000	4.74927E-004	12	...........	0
	568	569	1.26681E+000	3.65465E-002	0.00000E+000	1.26800E+000	4.57227E-004	12	...........	0
	570	571	1.26860E+000	3.69703E-002	0.00000E+000	1.27000E+000	5.75784E-004	12	...........	0
	572	573	1.27068E+000	3.76308E-002	0.00000E+000	1.27200E+000	4.99110E-004	12	...........	0
	574	575	1.27253E+000	3.76548E-002	0.00000E+000	1.27400E+000	4.92577E-004	12	...........	0
	576	577	1.27470E+000	3.76516E-002	0.00000E+000	1.27600E+000	5.58818E-004	12	...........	0
	578	579	1.27659E+000	3.76544E-002	0.00000E+000	1.27800E+000	5.81867E-004	12	...........	0
	580	581	1.27867E+000	3.76613E-002	0.00000E+000	1.28000E+000	5.06193E-004	12	...........	0
	582	583	1.28061E+000	3.77198E-002	0.00000E+000	1.28200E+000	4.79744E-004	12	...........	0
	584	585	1.28270E+000	3.77978E-002	0.00000E+000	1.28400E+000	6.08175E-004	12	...........	0
	586	587	1.28467E+000	3.78703E-002	0.00000E+000	1.28600E+000	5.87567E-004	12	...........	0
	588	589	1.28669E+000	3.80496E-002	0.00000E+000	1.28800E+000	5.03027E-004	12	...........	0
	590	591	1.28868E+000	3.83683E-002	0.00000E+000	1.29000E+000	4.90802E-004	12	...........	0
	592	593	1.29074E+000	3.84773E-002	0.00000E+000	1.29200E+000	5.38318E-004	12	...........	0
	594	595	1.29268E+000	3.85803E-002	0.00000E+000	1.29400E+000	5.52368E-004	12	...........	0
	596	597	1.29466E+000	3.87175E-002	0.00000E+000	1.29600E+000	5.24585E-004	12	...........	0
	598	599	1.29652E+000	3.88365E-002	0.00000E+000	1.29800E+000	5.20626E-004	12	...........	0
	600	601	1.29865E+000	3.89926E-002	0.00000E+000	1.30000E+000	5.90417E-004	12	...........	0
	602	603	1.30053E+000	3.90805E-002	0.00000E+000	1.30200E+000	5.91109E-004	12	...........	0
	604	605	1.30265E+000	3.92094E-002	0.00000E+000	1.30400E+000	5.12085E-004	12	...........	0
	606	607	1.30451E+000	3.93228E-002	0.00000E+000	1.30600E+000	4.94210E-004	12	...........	0
	608	609	1.30667E+000	3.94097E-002	0.00000E+000	1.30800E+000	5.90367E-004	12	...........	0
	610	611	1.30865E+000	3.95042E-002	0.00000E+000	1.31000E+000	5.71801E-004	12	...........	0
	612	613	1.31067E+000	3.97122E-002	0.00000E+000	1.31200E+000	5.20176E-004	12	...........	0
	614	615	1.31266E+000	3.98235E-002	0.00000E+000	1.31400E+000	4.74652E-004	12	...........	0
	616	617	1.31469E+000	3.97376E-002	0.00000E+000	1.31600E+000	5.68867E-004	12	...........	0
	618	619	1.31667E+000	3.98869E-002	0.00000E+000	1.31800E+000	5.90117E-004	12	...........	0
	620	621	1.31875E+000	4.00304E-002	0.00000E+000	1.32000E+000	5.01760E-004	12	...........	0
	622	623	1.32050E+000	4.01054E-002	0.00000E+000	1.32200E+000	5.01102E-004	12	...........	0
	624	625	1.32269E+000	4.02300E-002	0.00000E+000	1.32400E+000	5.47309E-004	12	...........	0
	626	627	1.32460E+000	4.03354E-002	0.00000E+000	1.32600E+000	5.96109E-004	12	...........	0
	628	629	1.32664E+000	4.05763E-002	0.00000E+000	1.32800E+000	5.18085E-004	12	...........	0
	630	631	1.32850E+000	4.07090E-002	0.00000E+000	1.33000E+000	4.89210E-004	12	...........	0
	632	633	1.33063E+000	4.07015E-002	0.00000E+000	1.33200E+000	5.88184E-004	12	...........	0
	634	635	1.33265E+000	4.08809E-002	0.00000E+000	1.33400E+000	5.82367E-004	12	...........	0
	636	637	1.33466E+000	4.09693E-002	0.00000E+000	1.33600E+000	4.93385E-004	12	...........	0
	638	639	1.33663E+000	4.10855E-002	0.00000E+000	1.33800E+000	4.73352E-004	12	...........	0
	640	641	1.33868E+000	4.11737E-002	0.00000E+000	1.34000E+000	5.43243E-004	12	...........	0
	642	643	1.34066E+000	4.12833E-002	0.00000E+000	1.34200E+000	5.59101E-004	12	...........	0
	644	645	1.34265E+000	4.14283E-002	0.00000E+000	1.34400E+000	5.00527E-004	12	...........	0
	646	647	1.34461E+000	4.14956E-002	0.00000E+000	1.34600E+000	4.81735E-004	12	...........	0
	648	649	1.34665E+000	4.16191E-002	0.00000E+000	1.34800E+000	5.69442E-004	12	...........	0
	650	651	1.34850E+000	4.18005E-002	0.00000E+000	1.35000E+000	6.12750E-004	12	...........	0
	652	653	1.35062E+000	4.19085E-002	0.00000E+000	1.35200E+000	5.09535E-004	12	...........	0
	654	655	1.35250E+000	4.19406E-002	0.00000E+000	1.35400E+000	5.05193E-004	12	...........	0
	656	657	1.35463E+000	4.20719E-002	0.00000E+000	1.35600E+000	5.87625E-004	12	...........	0
	658	659	1.35651E+000	4.22907E-002	0.00000E+000	1.35800E+000	5.76117E-004	12	...........	0
	660	661	1.35864E+000	4.24299E-002	0.00000E+000	1.36000E+000	5.06943E-004	12	...........	0
	662	663	1.36061E+000	4.24991E-002	0.00000E+000	1.36200E+000	4.95877E-004	12	...........	0
	664	665	1.36266E+000	4.25900E-002	0.00000E+000	1.36400E+000	5.65426E-004	12	...........	0
	666	667	1.36465E+000	4.26537E-002	0.00000E+000	1.36600E+000	5.74884E-004	12	...........	0
	668	669	1.36664E+000	4.27680E-002	0.00000E+000	1.36800E+000	5.19185E-004	12	...........	0
	670	671	1.36864E+000	4.28222E-002	0.00000E+000	1.37000E+000	4.91444E-004	12	...........	0
	672	673	1.37076E+000	4.28848E-002	0.00000E+000	1.37200E+000	4.64861E-004	12	...........	0
	674	675	1.37253E+000	4.30889E-002	0.00000E+000	1.37400E+000	5.85309E-004	12	...........	0
	676	677	1.37461E+000	4.32350E-002	0.00000E+000	1.37600E+000	5.47009E-004	12	...........	0
	678	679	1.37648E+000	4.33349E-002	0.00000E+000	1.37800E+000	5.04660E-004	12	...........	0
	680	681	1.37860E+000	4.34448E-002	0.00000E+000	1.38000E+000	5.38193E-004	12	...........	0
	682	683	1.38053E+000	4.35136E-002	0.00000E+000	1.38200E+000	5.87584E-004	12	...........	0
	684	685	1.38260E+000	4.36749E-002	0.00000E+000	1.38400E+000	5.57543E-004	12	...........	0
	686	687	1.38458E+000	4.38605E-002	0.00000E+000	1.38600E+000	5.20276E-004	12	...........	0
	688	689	1.38665E+000	4.40337E-002	0.00000E+000	1.38800E+000	5.72876E-004	12	...........	0
	690	691	1.38863E+000	4.41076E-002	0.00000E+000	1.39000E+000	5.89025E-004	12	...........	0
	692	693	1.39062E+000	4.41709E-002	0.00000E+000	1.39200E+000	5.38960E-004	12	...........	0
	694	695	1.39263E+000	4.42964E-002	0.00000E+000	1.39400E+000	4.97052E-004	12	...........	0
	696	697	1.39463E+000	4.43748E-002	0.00000E+000	1.39600E+000	5.39284E-004	12	...........	0
	698	699	1.39660E+000	4.44348E-002	0.00000E+000	1.39800E+000	6.02767E-004	12	...........	0
	700	701	1.39855E+000	4.45559E-002	0.00000E+000	1.40000E+000	5.56126E-004	12	...........	0
	702	703	1.40045E+000	4.48419E-002	0.00000E+000	1.40200E+000	5.20635E-004	12	...........	0
	704	705	1.40257E+000	4.48751E-002	0.00000E+000	1.40400E+000	5.88084E-004	12	...........	0
	706	707	1.40452E+000	4.49855E-002	0.00000E+000	1.40600E+000	6.06108E-004	12	...........	0
	708	709	1.40656E+000	4.50725E-002	0.00000E+000	1.40800E+000	5.54801E-004	12	...........	0
	710	711	1.40850E+000	4.52292E-002	0.00000E+000	1.41000E+000	5.13277E-004	12	...........	0
	712	713	1.41060E+000	4.53292E-002	0.00000E+000	1.41200E+000	6.05059E-004	12	...........	0
	714	715	1.41259E+000	4.55308E-002	0.00000E+000	1.41400E+000	5.98709E-004	12	...........	0
	716	717	1.41460E+000	4.57015E-002	0.00000E+000	1.41600E+000	5.34043E-004	12	...........	0
	718	719	1.41659E+000	4.57266E-002	0.00000E+000	1.41800E+000	5.27685E-004	12	...........	0
	720	721	1.41859E+000	4.58884E-002	0.00000E+000	1.42000E+000	5.73142E-004	12	...........	0
	722	723	1.42061E+000	4.59657E-002	0.00000E+000	1.42200E+000	5.85167E-004	12	...........	0
	724	725	1.42248E+000	4.59772E-002	0.00000E+000	1.42400E+000	5.53951E-004	12	...........	0
	726	727	1.42440E+000	4.60518E-002	0.00000E+000	1.42600E+000	5.72934E-004	12	...........	0
	728	729	1.42651E+000	4.62015E-002	0.00000E+000	1.42800E+000	5.80159E-004	12	...........	0
	730	731	1.42849E+000	4.63234E-002	0.00000E+000	1.43000E+000	5.93350E-004	12	...........	0
	732	733	1.43051E+000	4.64238E-002	0.00000E+000	1.43200E+000	5.69559E-004	12	...........	0
	734	735	1.43246E+000	4.66190E-002	0.00000E+000	1.43400E+000	5.42843E-004	12	...........	0
	736	737	1.43454E+000	4.67149E-002	0.00000E+000	1.43600E+000	5.61767E-004	12	...........	0
	738	739	1.43656E+000	4.67869E-002	0.00000E+000	1.43800E+000	5.96150E-004	12	...........	0
	740	741	1.43855E+000	4.70669E-002	0.00000E+000	1.44000E+000	5.76459E-004	12	...........	0
	742	743	1.44054E+000	4.72212E-002	0.00000E+000	1.44200E+000	5.19051E-004	12	...........	0
	744	745	1.44255E+000	4.72949E-002	0.00000E+000	1.44400E+000	5.51851E-004	12	...........	0
	746	747	1.44459E+000	4.73395E-002	0.00000E+000	1.44600E+000	5.84017E-004	12	...........	0
	748	749	1.44655E+000	4.74494E-002	0.00000E+000	1.44800E+000	5.75934E-004	12	...........	0
	750	751	1.44835E+000	4.74823E-002	0.00000E+000	1.45000E+000	5.47318E-004	12	...........	0
	752	753	1.45045E+000	4.75832E-002	0.00000E+000	1.45200E+000	5.47026E-004	12	...........	0
	754	755	1.45242E+000	4.76347E-002	0.00000E+000	1.45400E+000	6.11608E-004	12	...........	0
	756	757	1.45445E+000	4.78396E-002	0.00000E+000	1.45600E+000	5.85292E-004	12	...........	0
	758	759	1.45644E+000	4.79430E-002	0.00000E+000	1.45800E+000	5.19176E-004	12	...........	0
	760	761	1.45846E+000	4.81013E-002	0.00000E+000	1.46000E+000	5.49668E-004	12	...........	0
	762	763	1.46053E+000	4.81426E-002	0.00000E+000	1.46200E+000	5.98525E-004	12	...........	0
	764	765	1.46251E+000	4.82868E-002	0.00000E+000	1.46400E+000	5.59018E-004	12	...........	0
	766	767	1.46449E+000	4.85089E-002	0.00000E+000	1.46600E+000	5.07668E-004	12	...........	0
	768	769	1.46653E+000	4.86516E-002	0.00000E+000	1.46800E+000	5.51118E-004	12	...........	0
	770	771	1.46857E+000	4.86707E-002	0.00000E+000	1.47000E+000	6.07308E-004	12	...........	0
	772	773	1.47053E+000	4.88836E-002	0.00000E+000	1.47200E+000	5.60659E-004	12	...........	0
	774	775	1.47248E+000	4.88917E-002	0.00000E+000	1.47400E+000	4.93302E-004	12	...........	0
	776	777	1.47441E+000	4.89479E-002	0.00000E+000	1.47600E+000	5.28751E-004	12	...........	0
	778	779	1.47642E+000	4.90401E-002	0.00000E+000	1.47800E+000	6.27358E-004	12	...........	0
	780	781	1.47838E+000	4.91376E-002	0.00000E+000	1.48000E+000	5.78126E-004	12	...........	0
	782	783	1.48040E+000	4.91605E-002	0.00000E+000	1.48200E+000	5.20868E-004	12	...........	0
	784	785	1.48243E+000	4.92242E-002	0.00000E+000	1.48400E+000	5.18968E-004	12	...........	0
	786	787	1.48443E+000	4.94140E-002	0.00000E+000	1.48600E+000	6.00209E-004	12	...........	0
	788	789	1.48647E+000	4.96265E-002	0.00000E+000	1.48800E+000	5.72467E-004	12	...........	0
	790	791	1.48845E+000	4.97157E-002	0.00000E+000	1.49000E+000	5.37676E-004	12	...........	0
	792	793	1.49050E+000	4.98513E-002	0.00000E+000	1.49200E+000	5.60134E-004	12	...........	0
	794	795	1.49255E+000	4.99496E-002	0.00000E+000	1.49400E+000	5.97650E-004	12	...........	0
	796	797	1.49449E+000	5.03243E-002	0.00000E+000	1.49600E+000	5.93825E-004	12	...........	0
	798	799	1.49654E+000	5.04937E-002	0.00000E+000	1.49800E+000	5.51493E-004	12	...........	0
	800	801	1.49841E+000	5.04884E-002	0.00000E+000	1.50000E+000	5.01402E-004	12	...........	0